Folder: specfit/example_measurements/msa

Note: README.md
# specfit
software for x-ray fluorescence deconvolution

File: xy-21-1-15.MSA
#FORMAT      : EMSA/MAS Spectral Data File
#VERSION     : 1.0
#TITLE       :
#DATE        : 30-Apr-2002
#TIME        : 00:52
#OWNER       : PRAXIS
#NPOINTS     : 1024
#NCOLUMNS    : 32
#XUNITS      : keV
#YUNITS      : counts
#DATATYPE    : Y
#XPERCHAN    : 0.0399341
#OFFSET      : -0.94429
#CHOFFSET    :
#SIGNALTYP   :
#XLABELS     :
#YLABELS     :
#BEAMKV   -kV: 50
#EMISSION -µA: 600
#BEAMDIAM- nm:
#XPOSITION   :
#YPOSITION   :
#ZPOSITION   :
#ELEVANGLE-dg:
#SOLIDANGL-sR:
#LIVETIME  -s: 10.000
#REALTIME  -s: 9.973
#THCWIND     :
#TAUWIND-cm  :
#COMMENT     : XYZ
#CRYSTMATL   :
#CRYSTAREA   :
#CRYSTTHIK   :
#DEADTIME    :
#NXPOS       : 21
#NYPOS       : 1
#NZPOS       : 15
#XSTEP       : -150
#YSTEP       : 0
#ZSTEP       : -20
#XNULL       : 15500
#YNULL       : 8500
#ZNULL       : 3100
#TANXY       : 0
#SPECTRUM    :
0 0 0 0 0 0 0 0 0 0 0 0 0 0 0 0 0 0 0 0 1 38 571 2162 2379 773 74 2 0 0 0 0
0 0 0 0 0 0 0 0 0 0 0 0 0 0 0 0 0 0 0 0 0 0 0 0 0 0 0 0 0 0 0 0
1 1 0 3 2 5 7 10 9 10 1 0 2 0 0 0 0 0 1 0 0 1 0 0 0 0 2 1 0 2 1 1
0 0 0 0 0 0 0 0 0 0 0 0 0 0 0 0 1 0 4 0 1 2 4 5 6 2 3 1 0 0 1 0
0 0 0 0 0 0 0 0 1 0 0 1 1 0 0 0 0 0 0 0 0 0 0 0 0 0 0 0 0 0 0 1
1 0 0 0 0 0 2 0 0 0 0 0 0 0 0 0 0 0 0 0 0 0 0 0 0 0 0 2 1 0 0 1
0 0 0 0 0 1 0 0 0 0 0 0 0 0 0 0 0 0 0 0 0 0 0 0 0 0 0 0 0 0 0 0
0 0 0 0 0 0 0 0 0 0 0 0 0 0 0 0 0 0 0 0 0 0 0 0 0 0 0 0 0 0 0 0
0 0 0 0 0 0 0 0 0 0 0 0 0 0 0 0 0 0 0 0 1 46 596 2108 2399 786 62 2 0 0 0 0
0 0 0 0 0 0 0 0 0 0 1 0 0 0 0 0 0 0 0 0 0 0 0 0 0 0 0 0 0 0 0 0
0 0 0 0 1 0 1 3 1 1 1 0 0 0 1 0 0 1 1 0 1 0 0 0 0 1 0 1 0 0 0 1
1 1 0 0 1 2 0 0 0 1 1 1 0 1 0 1 1 2 0 1 1 0 0 1 0 0 0 0 0 0 0 2
2 0 2 1 0 1 0 0 1 0 0 0 0 2 0 0 0 0 0 0 0 0 0 0 0 0 0 0 0 0 0 0
0 0 0 0 0 0 1 0 1 0 1 0 0 0 0 1 0 1 0 0 0 0 1 0 0 0 0 0 0 0 2 0
0 0 0 0 0 0 0 0 0 1 1 0 1 0 0 0 0 0 0 0 0 0 0 0 1 0 0 0 0 0 0 1
0 0 0 0 0 0 0 0 0 0 0 0 0 0 0 0 0 0 0 0 0 0 0 0 0 0 0 1 0 0 0 0
0 0 0 0 0 0 0 0 0 0 0 0 0 0 0 0 0 0 0 0 0 46 584 2150 2369 778 67 6 0 0 0 0
0 2 0 0 0 1 0 0 0 0 0 0 1 0 0 0 1 0 1 0 0 0 0 0 0 0 1 0 0 0 0 0
0 0 2 2 4 10 16 19 25 21 13 8 1 0 0 0 0 0 0 1 0 0 0 0 1 0 0 0 0 0 0 1
1 1 1 1 0 0 0 1 1 0 1 0 0 1 0 0 1 0 0 0 0 0 0 0 1 0 0 0 0 0 1 1
2 0 2 0 0 1 0 0 0 0 2 1 0 0 0 0 0 0 0 0 1 0 0 1 0 0 1 0 0 0 2 0
2 0 0 0 1 0 0 0 0 0 0 0 0 0 1 0 0 0 1 1 0 0 1 0 0 0 0 1 1 0 0 0
0 0 0 1 0 0 0 0 1 0 0 0 0 0 0 0 0 0 1 1 0 1 1 0 0 0 0 0 0 1 0 0
0 0 0 0 0 0 0 0 0 0 1 0 0 0 0 0 0 0 0 0 0 0 0 0 0 0 0 0 0 0 1 0
0 0 0 0 0 0 0 0 0 0 0 0 0 0 0 0 0 0 0 0 1 46 599 2100 2409 784 59 2 0 0 0 0
0 0 0 0 0 0 0 0 0 1 0 0 0 0 0 1 0 0 0 0 0 0 0 0 0 0 1 0 0 0 0 0
5 3 9 23 31 73 138 179 215 160 106 56 16 2 2 0 0 0 0 0 0 0 0 0 1 0 0 0 0 0 0 0
0 0 0 0 0 0 0 0 0 0 0 0 1 1 0 0 0 0 0 1 0 0 0 0 1 1 0 0 0 1 0 0
0 1 0 1 0 0 0 0 0 0 0 0 0 0 0 0 0 1 0 0 1 0 0 0 0 0 1 0 0 0 1 0
0 0 0 0 0 0 0 0 1 1 0 1 0 0 0 0 0 0 0 0 1 0 1 1 1 0 0 0 0 0 1 0
0 0 1 0 1 1 1 0 0 0 0 0 1 0 0 0 1 0 0 0 0 1 0 0 0 0 0 0 1 0 1 0
0 0 0 0 0 0 0 0 0 0 0 0 0 0 0 0 0 1 0 0 0 0 0 0 0 0 0 0 0 0 0 0
0 0 0 0 0 0 0 0 0 0 0 0 0 0 0 0 0 0 0 0 0 48 558 2106 2480 736 71 1 0 0 0 0
0 0 0 0 1 0 0 0 0 1 0 0 0 0 0 0 1 0 1 0 0 0 0 1 0 1 0 1 0 0 0 0
9 10 6 18 30 67 132 147 167 147 81 45 18 2 2 1 0 0 0 0 0 0 0 0 0 0 0 0 0 0 0 0
0 0 0 0 0 0 0 0 0 0 0 0 0 0 0 0 0 0 0 0 0 0 0 0 0 0 0 0 0 0 0 0
0 0 0 0 1 1 1 0 0 0 0 0 0 0 0 0 0 0 0 0 0 0 0 0 0 0 1 0 0 0 0 1
0 0 0 0 0 0 0 0 0 0 0 1 1 0 0 0 0 1 0 0 0 0 2 0 0 0 0 0 0 1 0 0
0 0 1 1 0 0 0 0 0 0 1 0 1 0 0 0 1 0 0 0 0 0 1 0 1 0 1 0 0 0 0 0
0 0 0 0 0 0 0 0 0 1 0 0 0 0 0 0 0 0 0 0 0 0 0 0 0 1 0 0 0 0 0 0
0 0 0 0 0 0 0 0 0 0 0 0 0 0 0 0 0 0 0 0 1 41 566 2150 2393 768 77 4 0 0 0 0
0 0 1 0 0 0 0 0 0 0 1 0 0 0 0 0 0 0 0 0 1 0 0 0 0 1 0 1 0 0 0 0
7 3 3 5 21 28 52 73 74 62 46 25 7 2 0 1 1 3 1 0 1 0 0 2 1 2 1 3 2 2 1 0
0 0 0 0 0 0 1 0 0 1 0 0 0 0 1 0 0 0 0 1 0 3 1 0 1 1 1 0 2 0 0 1
1 1 0 1 0 0 1 0 1 0 0 0 0 0 0 0 0 0 0 0 0 0 0 0 0 0 0 0 0 0 0 0
0 0 0 0 0 0 0 0 0 0 0 0 0 0 0 0 0 0 1 1 0 0 0 0 1 0 0 0 0 0 1 0
0 0 0 0 0 0 0 0 0 0 0 0 0 0 0 0 0 0 1 0 0 0 0 1 0 0 0 1 1 0 0 0
0 0 0 0 0 1 1 0 0 0 0 0 0 0 0 1 1 0 0 0 0 0 0 0 0 0 0 0 0 0 0 0
0 0 0 0 0 0 0 0 0 0 0 0 0 0 0 0 0 0 0 0 3 44 604 2158 2391 728 70 2 0 0 0 0
0 0 0 0 0 0 0 0 0 0 0 0 0 0 0 0 0 0 0 0 0 0 0 0 0 0 0 0 0 0 0 0
1 1 3 2 4 9 21 37 28 26 10 13 5 1 0 2 1 1 1 2 1 1 2 4 3 0 3 1 1 2 0 2
1 1 0 3 1 1 0 1 1 2 1 0 0 1 1 0 1 0 2 1 0 2 1 0 2 2 1 1 0 0 0 0
0 1 2 0 1 1 1 0 0 0 1 1 0 1 0 0 0 0 1 2 0 0 0 0 1 0 0 0 0 0 0 0
0 0 1 0 0 0 0 1 0 0 0 0 0 0 0 0 0 0 0 0 0 1 0 0 1 0 0 1 1 0 0 0
0 0 0 0 0 1 0 0 0 0 0 0 0 0 0 0 0 0 0 0 0 0 0 1 0 0 0 0 0 0 0 0
0 0 0 0 0 1 1 0 0 0 0 0 0 0 0 0 0 0 1 0 0 0 0 0 0 0 0 0 0 0 0 0
0 0 0 0 0 0 0 0 0 0 0 0 0 0 0 0 0 0 0 0 0 33 577 2161 2395 750 81 3 0 0 0 0
0 0 0 0 2 2 1 2 3 2 0 0 0 0 0 1 2 2 0 0 3 1 0 1 0 0 2 1 0 0 0 0
0 1 0 0 0 0 1 2 0 3 0 0 1 1 1 1 2 0 2 0 3 1 0 1 2 0 0 2 0 1 1 1
3 1 0 1 0 0 1 0 2 1 0 2 0 0 1 4 1 0 1 0 1 0 0 1 1 1 0 2 2 0 0 1
1 1 2 1 0 0 2 2 0 1 0 2 0 0 0 0 0 0 0 0 0 0 0 0 0 1 0 0 0 1 0 1
0 1 1 0 0 0 0 1 0 0 0 1 0 0 0 1 1 1 0 1 1 0 1 0 0 0 0 0 0 1 0 0
0 0 0 0 2 0 0 0 0 2 1 0 0 0 0 0 1 0 0 0 0 0 0 0 1 1 0 0 0 0 2 0
0 0 1 0 1 0 0 0 0 0 0 0 0 0 0 0 0 0 0 0 0 0 0 0 0 0 0 0 0 0 0 1
0 0 0 0 0 0 0 0 0 0 0 0 0 0 0 0 0 0 0 0 2 40 596 2111 2405 766 77 3 0 0 0 0
2 1 1 1 1 3 0 0 4 2 2 1 1 1 0 1 0 1 3 2 2 0 2 0 0 0 4 3 2 1 1 1
17 17 42 58 99 204 356 429 454 402 267 124 44 14 0 1 0 0 0 1 1 0 1 1 0 0 0 0 0 0 0 1
2 1 1 0 1 1 0 1 2 1 1 1 0 0 1 0 0 0 1 1 0 1 0 1 3 0 0 0 0 0 1 2
0 1 0 0 0 0 0 0 0 1 0 0 0 0 0 1 0 0 0 0 1 0 0 0 0 0 0 0 0 0 0 0
0 1 1 1 0 0 0 0 0 0 0 0 0 0 0 1 1 0 0 1 0 1 0 0 0 2 0 1 0 0 1 0
1 0 0 0 0 1 0 0 0 1 0 1 0 0 0 0 0 1 0 0 0 0 0 0 0 0 0 0 1 0 0 0
0 0 0 1 1 0 0 0 0 0 0 1 0 0 0 0 0 0 0 0 0 0 0 0 0 0 0 0 0 0 0 0
0 0 0 0 0 0 0 0 0 0 0 0 0 0 0 0 0 0 0 0 1 43 530 2209 2350 796 68 3 0 0 0 0
1 1 1 3 0 3 9 20 29 18 20 7 1 1 2 5 14 8 15 15 7 4 1 7 9 8 4 7 2 1 4 2
16 27 32 75 143 301 539 789 837 693 437 192 75 17 4 2 0 0 0 0 0 0 0 0 0 0 0 0 0 0 0 0
0 1 0 0 0 0 1 0 0 0 0 0 0 0 0 1 0 1 0 0 1 0 0 0 0 1 0 1 0 0 1 0
0 2 0 1 0 1 0 0 0 0 0 0 0 0 0 0 0 0 0 0 0 0 0 0 1 0 0 0 1 0 0 0
0 0 1 0 0 0 0 0 0 1 0 0 0 0 0 0 0 0 0 0 0 1 0 0 0 1 0 0 0 0 0 0
0 0 0 0 0 0 0 0 1 2 0 0 0 0 0 0 0 0 0 0 1 0 0 0 0 0 0 1 0 1 0 1
0 0 0 0 0 0 0 0 0 0 0 0 0 0 0 0 0 0 0 0 0 0 0 0 0 0 0 0 0 0 0 0
0 0 0 0 0 0 0 0 0 0 0 0 0 0 0 0 0 0 0 0 0 45 582 2162 2360 773 76 2 0 0 0 0
37 2 3 1 3 3 2 0 1 3 0 0 2 0 1 0 1 1 2 0 0 1 0 1 1 0 2 0 1 2 1 0
21 26 29 56 104 207 375 543 513 471 269 135 49 20 11 3 4 2 2 1 5 6 6 6 7 6 3 5 5 4 7 11
0 1 0 0 1 0 0 0 1 0 0 1 0 0 0 0 0 1 0 0 0 0 0 1 1 1 0 0 0 0 2 0
0 0 1 2 0 0 0 0 0 1 0 0 0 0 0 0 1 0 0 0 0 0 0 0 0 0 0 0 0 0 0 0
0 0 0 0 1 0 0 0 1 0 0 0 0 0 0 0 0 0 0 0 0 0 0 0 0 0 0 0 0 0 1 0
0 0 0 0 0 0 0 1 0 0 0 0 0 0 0 0 0 0 0 0 0 0 0 0 0 0 0 1 0 0 0 0
0 0 0 0 0 0 1 0 0 0 0 0 0 0 0 0 0 0 0 0 0 0 0 0 0 0 0 0 0 0 0 0
0 0 0 0 0 0 0 0 0 0 0 0 0 0 0 0 0 0 0 0 3 43 593 2153 2394 751 62 1 0 0 0 0
12 2 1 0 0 0 0 0 0 0 0 1 0 0 0 1 0 1 0 0 0 1 0 0 0 0 1 0 1 0 2 0
13 8 15 14 26 50 73 75 88 117 68 19 20 11 3 1 8 10 6 5 5 11 7 8 4 4 8 6 5 4 4 2
1 1 0 1 1 2 1 1 1 1 1 0 1 3 0 0 1 1 3 0 1 3 1 1 3 1 0 1 1 3 2 0
0 0 2 1 2 0 1 0 0 0 1 2 1 0 0 0 0 1 0 0 0 0 0 1 0 2 0 0 0 0 0 0
0 1 0 0 0 0 0 0 0 0 0 0 0 0 0 0 0 1 0 1 0 0 0 0 1 0 0 0 2 0 0 1
0 0 0 0 0 1 0 0 1 0 0 0 0 0 0 0 0 0 0 1 0 2 0 0 0 0 0 0 0 0 0 0
0 0 1 1 0 1 0 0 0 0 0 0 0 0 0 1 0 0 0 0 1 0 0 0 0 0 0 0 0 0 0 0
0 0 0 0 0 0 0 0 0 0 0 0 0 0 0 0 0 0 0 0 2 44 543 2113 2378 850 70 0 0 0 0 0
3 0 1 0 0 0 0 1 0 0 1 0 0 0 0 1 0 3 1 0 0 0 0 0 0 0 0 0 0 0 0 0
2 2 2 5 2 10 17 31 29 24 14 14 5 4 2 3 2 3 4 1 1 1 2 4 6 2 2 1 1 5 2 1
1 0 1 1 0 1 2 0 1 2 1 1 0 1 0 1 2 0 2 1 1 2 0 0 1 1 1 0 0 2 1 1
0 1 0 0 0 2 1 0 1 0 0 0 0 1 0 0 1 0 0 0 0 0 1 1 1 0 0 0 1 0 0 0
0 0 0 0 1 0 0 0 0 0 0 0 0 1 0 1 0 0 1 1 1 0 0 0 1 1 0 0 0 1 0 0
1 1 0 0 0 1 0 0 1 1 0 1 0 0 0 1 0 0 0 0 0 0 0 0 0 1 0 0 0 0 0 1
0 0 0 0 0 0 1 0 0 0 0 0 0 0 0 0 0 0 0 0 0 0 0 0 0 0 0 0 0 0 0 0
0 0 0 0 0 0 0 0 0 0 0 0 0 0 0 0 0 0 0 0 1 40 565 2122 2390 797 83 2 0 0 0 0
3 1 3 2 7 3 13 40 43 51 45 13 5 3 7 20 34 34 27 29 21 14 11 6 8 12 17 11 4 5 10 8
37 49 81 126 258 414 699 986 1087 893 566 279 101 23 7 9 7 5 7 9 15 6 5 8 4 6 11 6 8 7 7 9
3 2 1 1 1 1 1 1 1 1 1 0 2 0 2 0 1 0 1 1 1 0 0 2 1 1 2 0 2 2 1 0
0 0 0 0 0 0 0 1 0 0 0 2 0 0 0 0 0 0 0 0 0 0 0 0 0 0 0 0 0 0 0 0
0 1 0 0 1 0 0 0 0 2 0 0 1 0 1 0 1 0 1 0 1 0 0 0 0 0 0 0 0 0 0 1
0 0 0 0 0 0 0 0 0 0 0 0 0 1 0 0 0 0 0 1 0 0 0 0 0 0 0 0 0 0 0 0
0 0 0 0 0 0 0 0 0 0 0 0 0 0 0 0 0 0 0 0 0 0 0 1 0 0 0 0 0 1 0 0
0 0 0 0 0 0 0 0 0 0 0 0 0 0 0 0 0 0 0 0 0 46 595 2112 2389 788 69 1 0 0 0 0
4 7 6 13 16 33 102 176 274 286 158 72 32 17 36 66 119 127 165 100 65 69 32 17 31 45 42 36 35 16 18 8
70 90 105 189 427 1011 1715 2405 2706 2241 1408 650 238 72 17 7 2 3 3 0 1 3 4 2 1 5 3 1 1 1 1 2
1 3 0 0 1 1 2 1 0 1 1 0 1 0 2 2 1 2 3 2 1 0 1 0 0 2 0 2 0 1 1 0
1 0 2 1 2 0 0 0 1 0 0 1 1 0 0 0 0 0 0 1 0 1 0 1 1 0 0 0 0 0 0 0
0 0 0 1 0 0 1 0 1 0 0 0 0 0 0 1 0 1 1 0 0 0 0 1 0 1 0 1 1 0 0 0
0 0 0 0 0 1 0 0 0 0 0 0 0 0 0 0 0 0 0 0 0 0 1 0 0 0 0 1 0 0 0 0
0 0 0 0 0 0 0 0 1 0 0 0 0 0 0 0 0 0 0 0 0 0 0 0 0 0 0 0 0 0 0 0
0 0 0 0 0 0 0 0 0 0 0 0 0 0 0 0 0 0 0 0 2 50 584 2110 2442 727 85 0 0 0 0 0
2 1 1 0 0 0 1 0 1 0 0 1 0 0 0 0 0 0 0 0 1 0 1 1 1 0 1 0 0 0 0 0
65 79 104 194 394 883 1683 2339 2631 2100 1240 620 242 85 28 14 11 6 6 5 8 7 5 3 9 3 5 5 5 3 7 5
0 1 1 3 2 1 2 0 1 1 1 2 1 2 0 2 1 1 1 1 1 2 2 1 2 5 0 0 2 3 1 2
1 0 1 0 2 1 0 0 1 0 0 0 0 1 0 0 0 0 0 0 0 0 1 0 0 0 0 0 0 0 0 0
0 0 0 1 0 0 0 0 0 0 0 0 0 0 0 0 0 0 0 0 0 0 0 0 0 1 0 0 1 0 0 0
0 0 0 1 0 0 0 0 0 1 0 0 0 0 0 0 0 0 0 0 0 0 0 0 0 0 0 0 0 0 0 0
0 0 0 0 0 0 0 0 0 0 1 0 0 0 0 0 0 0 1 0 0 0 0 0 0 1 0 0 0 1 0 0
0 0 0 0 0 0 0 0 0 0 0 0 0 0 0 0 0 0 0 0 0 45 533 2145 2433 772 69 3 0 0 0 0
0 0 0 0 0 0 0 0 0 0 0 0 0 1 1 0 0 0 0 0 0 0 0 0 0 0 0 0 0 0 0 0
0 0 0 0 0 0 0 2 1 2 1 0 0 0 0 1 0 0 0 0 0 0 0 0 0 0 0 0 0 0 0 0
0 0 0 0 0 0 0 0 0 0 0 0 0 0 0 0 0 0 0 0 0 0 0 0 0 0 0 0 0 0 0 0
1 1 2 1 0 2 0 0 1 2 0 0 0 1 0 0 0 0 0 0 0 0 0 0 0 0 0 0 0 0 0 0
0 0 1 0 0 0 0 0 0 1 0 0 0 0 0 2 0 0 0 0 1 0 0 0 0 1 0 0 0 0 0 0
0 1 0 0 0 0 0 0 0 0 1 0 0 0 0 0 0 0 0 0 0 0 0 0 0 0 0 0 0 1 0 0
0 0 0 1 0 0 0 0 0 0 0 0 0 0 0 0 0 0 0 0 0 0 0 0 0 0 0 0 0 0 0 0
0 0 0 0 0 0 0 0 0 0 0 0 0 0 0 0 0 0 0 0 1 40 574 2119 2426 766 72 2 0 0 0 0
36 8 3 1 3 5 5 15 26 16 19 6 3 2 0 5 6 12 7 12 7 4 2 2 3 3 3 2 3 4 2 1
3 2 2 7 4 14 12 12 15 7 11 3 3 3 2 0 2 0 4 0 2 2 5 3 2 1 2 1 1 3 2 1
0 0 0 0 0 0 0 0 0 0 0 0 1 0 0 0 0 0 0 0 0 0 0 0 0 0 0 0 0 0 0 0
0 0 0 0 0 0 0 1 0 0 0 0 1 0 0 0 0 1 0 0 0 0 0 0 0 0 2 1 0 0 1 0
2 0 0 0 0 0 0 0 1 1 2 1 0 0 0 0 1 0 0 1 2 0 0 0 1 1 0 1 0 0 0 1
0 1 1 0 1 0 1 0 0 0 0 0 0 1 0 0 1 1 0 0 0 0 0 0 2 0 1 0 1 0 1 0
0 0 0 0 0 0 0 1 0 0 0 0 0 1 0 0 0 0 0 0 0 0 0 0 0 0 0 0 0 0 0 0
0 0 0 0 0 0 0 0 0 0 0 0 0 0 0 0 0 0 0 0 2 36 595 2146 2394 745 78 4 0 0 0 0
4 7 7 14 29 80 234 446 573 446 234 77 26 14 50 163 310 418 368 242 158 76 46 43 85 112 97 56 33 12 5 12
1 1 0 6 1 10 10 9 10 13 8 5 1 2 0 1 0 0 0 0 0 0 0 0 0 1 0 0 0 1 0 0
0 1 0 0 0 0 0 0 0 0 0 0 0 0 0 0 0 0 1 0 0 0 0 0 0 0 0 0 0 0 0 0
0 0 0 1 0 0 0 0 0 0 0 0 1 0 0 0 1 0 0 0 0 0 0 0 0 0 1 0 0 0 1 0
0 0 0 0 0 0 0 0 0 0 0 0 0 0 0 0 0 0 0 0 0 0 0 0 0 0 0 0 0 0 0 0
#ENDOFDATA   :